"width","height","webaudio","browser","browser_version","mobile","os","fullscreen","vsync_rate","webcam","microphone","trial_type","trial_index","time_elapsed","internal_node_id","total_bet","fixed_bet_over100","horse0_bet","horse1_bet","horse2_bet","horse3_bet","horse0_fix","horse1_fix","horse2_fix","horse3_fix","success","rt","response","accuracy","view_history","correct","timeout","failed_images","failed_audio","failed_video","type","overbet","speaker","delivery","list","horse"
"1920","956","true","chrome","117.0.0","false","Chrome OS","true","60.78","true","true","browser-check","0","997","0.0-0.0","0","100","20","20","","60","10","10","20","60","","","","","","","","","","","","","","","",""
"","","","","","","","","","","","fullscreen","1","3786","0.0-1.0","0","100","20","20","","60","10","10","20","60","true","","","","","","","","","","","","","","",""
"","","","","","","","","","","","survey","2","31349","0.0-2.0","0","100","20","20","","60","10","10","20","60","","27326","{""prolific_id"":""60454e458ec254684926c0d0"",""uk_origin"":""Yes"",""uk_live"":""Yes"",""english_l1"":""Yes""}","[{""uk_origin"":true},{""uk_live"":true},{""english_l1"":true}]","","","","","","","","","","","",""
"","","","","","","","","","","","instructions","3","63894","0.0-4.0","0","100","20","20","","60","10","10","20","60","","32544","","","[{""page_index"":0,""viewing_time"":32544}]","","","","","","","","","","",""
"","","","","","","","","","","","audio-button-response","4","71939","0.0-5.0-0.0","0","100","20","20","","60","10","10","20","60","","7584","8","","","false","","","","","","","","","",""
"","","","","","","","","","","","audio-button-response","5","78512","0.0-5.1-0.1","0","100","20","20","","60","10","10","20","60","","6571","2","","","true","","","","","","","","","",""
"","","","","","","","","","","","instructions","6","104432","0.0-7.0","0","100","20","20","","60","10","10","20","60","","25918","","","[{""page_index"":0,""viewing_time"":25918}]","","","","","","","","","","",""
"","","","","","","","","","","","preload","7","105006","0.0-8.0","0","100","20","20","","60","10","10","20","60","true","","","","","","false","[]","[]","[]","","","","","",""
"","","","","","","","","","","","html-keyboard-response","8","135229","0.0-9.0","0","100","20","20","","60","10","10","20","60","","30206"," ","","","","","","","","","","","","",""
"","","","","","","","","","","","audio-survey-input-response","9","189091","0.0-10.0","0","100","20","20","","60","10","10","20","60","","192129","{""firewalker"":""20""}","","","","","","","","firstbet","no","native","disfluent","16","firewalker"
"","","","","","","","","","","","audio-survey-input-response","10","218646","0.0-11.0","0","100","20","20","","60","10","10","20","60","","221630","{""firewalker"":"""",""apocalypse"":""20""}","","","","","","","","secondbet","no","nonnative","fluent","16","apocalypse"
"","","","","","","","","","","","audio-survey-input-response","11","247782","0.0-12.0","0","100","20","20","","60","10","10","20","60","","250734","{""firewalker"":"""",""apocalypse"":"""",""blackblade"":""40""}","","","","","","","","thirdbet","no","native","fluent","16","blackblade"
"","","","","","","","","","","","audio-survey-input-response","12","292165","0.0-13.0","0","100","20","20","","60","10","10","20","60","","295088","{""firewalker"":"""",""apocalypse"":"""",""blackblade"":"""",""silversky"":""60""}","","","","","","","","forthbet","no","nonnative","disfluent","16","silversky"
"","","","","","","","","","","","survey-html-form","13","327005","0.0-14.0-0.0-0.0","0","100","20","20","","60","10","10","20","60","","34823","{""firewalker"":""60"",""apocalypse"":""20"",""blackblade"":""20"",""silversky"":""60""}","","","","","","","","overbet","yes","","","",""
"","","","","","","","","","","","survey-html-form","14","362311","0.0-14.0-0.1-0.1","0","100","20","20","","60","10","10","20","60","","35296","{""firewalker"":""10"",""apocalypse"":""10"",""blackblade"":""20"",""silversky"":""60""}","","","","","","","","overbet","yes","","","",""
"","","","","","","","","","","","instructions","15","364960","0.0-15.0","0","100","20","20","","60","10","10","20","60","","2645","","","[{""page_index"":0,""viewing_time"":2644}]","","","","","","","","","","",""
"","","","","","","","","","","","survey","16","414103","0.0-16.0","0","100","20","20","","60","10","10","20","60","","49052","{""P0_Q0"":null,""competent_nonnative"":8,""smart_nonnative"":9,""educated_nonnative"":9,""intelligent_nonnative"":7,""successful_nonnative"":7,""P1_Q0"":null,""sociable_nonnative"":8,""friendly_nonnative"":9,""nice_nonnative"":8,""honest_nonnative"":8,""pleasant_nonnative"":9,""P2_Q0"":null,""irritated_nonnative"":1,""interested_nonnative"":8,""enthusiastic_nonnative"":7,""frustrated_nonnative"":1,""annoyed_nonnative"":1,""happy_nonnative"":6,""P3_Q0"":null,""trustworthy_nonnative"":9,""easy_nonnative"":9,""fluent_nonnative"":8,""strong_nonnative"":4}","[]","","","","","","","survey_nonnative","","non-native","","",""
"","","","","","","","","","","","survey","17","456283","0.0-17.0","0","100","20","20","","60","10","10","20","60","","42139","{""P0_Q0"":null,""sociable_native"":3,""friendly_native"":4,""nice_native"":7,""honest_native"":7,""pleasant_native"":8,""P1_Q0"":null,""trustworthy_native"":6,""easy_native"":9,""fluent_native"":8,""strong_native"":9,""P2_Q0"":null,""competent_native"":7,""smart_native"":4,""educated_native"":5,""intelligent_native"":5,""successful_native"":6,""P3_Q0"":null,""irritated_native"":3,""interested_native"":4,""enthusiastic_native"":3,""frustrated_native"":2,""annoyed_native"":1,""happy_native"":5}","[]","","","","","","","survey_native","","native","","",""
"","","","","","","","","","","","survey","18","561043","0.0-18.0","0","100","20","20","","60","10","10","20","60","","104721","{""P0_Q0"":null,""country_native"":""England"",""country_nonnative"":""Mexico"",""learn_future"":""Non-native speaker"",""P1_Q0"":null,""exposure_nn"":1,""exposure_n"":9,""P1_Q3"":null,""P1_Q4"":""Yes"",""P1_Q5"":3,""P2_Q0"":null,""naturalness_native"":4,""naturalness_nonnative"":5,""decision_making"":""After listening to them all together i decided to change my bets to what i thought sounded more trustworthy"",""P2_Q4"":""To see which speaker was more understandable "",""P2_Q5"":""great enjoyable survey ""}","[{""P1_Q4"":true}]","","","","","","","survey_checks","","","","",""
